USUBJID,LBTESTCD,LBSTRESN,LBSTRESU,LBDTC
TG-0001,K,4.0,mmol/L,2026-01-13
TG-0002,K,4.0,mmol/L,2026-01-14
TG-0003,K,4.0,mmol/L,2026-01-15
TG-0004,K,4.0,mmol/L,2026-01-16
TG-0005,K,4.0,mmol/L,2026-01-17
TG-0006,K,4.0,mmol/L,2026-01-18
TG-0007,K,4.0,mmol/L,2026-01-19
TG-0008,K,4.0,mmol/L,2026-01-20
TG-0009,K,4.0,mmol/L,2026-01-21
TG-0010,K,4.0,mmol/L,2026-01-12
TG-0011,K,4.0,mmol/L,2026-01-13
TG-0012,K,4.0,mmol/L,2026-01-14
TG-0013,K,4.0,mmol/L,2026-01-15
TG-0014,K,4.0,mmol/L,2026-01-16
TG-0015,K,4.0,mmol/L,2026-01-17
TG-0016,K,4.0,mmol/L,2026-01-18
TG-0017,K,4.0,mmol/L,2026-01-19
TG-0018,K,4.0,mmol/L,2026-01-20
TG-0019,K,4.0,mmol/L,2026-01-21
TG-0020,K,4.0,mmol/L,2026-01-12
TG-0021,K,4.0,mmol/L,2026-01-13
TG-0022,K,4.0,mmol/L,2026-01-14
TG-0023,K,4.0,mmol/L,2026-01-15
TG-0024,K,4.0,mmol/L,2026-01-16
TG-0025,K,4.0,mmol/L,2026-01-17
TG-0026,K,4.0,mmol/L,2026-01-18
TG-0027,K,4.0,mmol/L,2026-01-19
TG-0028,K,4.0,mmol/L,2026-01-20
TG-0029,K,4.0,mmol/L,2026-01-21
TG-0030,K,4.0,mmol/L,2026-01-12
TG-0031,K,4.0,mmol/L,2026-01-13
TG-0032,K,4.0,mmol/L,2026-01-14
TG-0033,K,4.0,mmol/L,2026-01-15
TG-0034,K,4.0,mmol/L,2026-01-16
TG-0035,K,4.0,mmol/L,2026-01-17
TG-0036,K,4.0,mmol/L,2026-01-18
TG-0037,K,4.0,mmol/L,2026-01-19
TG-0038,K,4.0,mmol/L,2026-01-20
TG-0039,K,4.0,mmol/L,2026-01-21
TG-0040,K,4.0,mmol/L,2026-01-12
TG-0041,K,4.0,mmol/L,2026-01-13
TG-0042,K,4.0,mmol/L,2026-01-14
TG-0043,K,4.0,mmol/L,2026-01-15
TG-0044,K,4.0,mmol/L,2026-01-16
TG-0045,K,4.0,mmol/L,2026-01-17
TG-0046,K,4.0,mmol/L,2026-01-18
TG-0047,K,4.0,mmol/L,2026-01-19
TG-0048,K,4.0,mmol/L,2026-01-20
TG-0049,K,4.0,mmol/L,2026-01-21
TG-0050,K,4.0,mmol/L,2026-01-12
TG-0051,K,4.0,mmol/L,2026-01-13
TG-0052,K,4.0,mmol/L,2026-01-14
TG-0053,K,4.0,mmol/L,2026-01-15
TG-0054,K,4.0,mmol/L,2026-01-16
TG-0055,K,4.0,mmol/L,2026-01-17
TG-0056,K,4.0,mmol/L,2026-01-18
TG-0057,K,4.0,mmol/L,2026-01-19
TG-0058,K,4.0,mmol/L,2026-01-20
TG-0059,K,4.0,mmol/L,2026-01-21
TG-0060,K,4.0,mmol/L,2026-01-12
TG-0061,K,4.0,mmol/L,2026-01-13
TG-0062,K,4.0,mmol/L,2026-01-14
TG-0063,K,4.0,mmol/L,2026-01-15
TG-0064,K,4.0,mmol/L,2026-01-16
TG-0065,K,4.0,mmol/L,2026-01-17
TG-0066,K,4.0,mmol/L,2026-01-18
TG-0067,K,4.0,mmol/L,2026-01-19
TG-0068,K,4.0,mmol/L,2026-01-20
TG-0069,K,4.0,mmol/L,2026-01-21
TG-0070,K,4.0,mmol/L,2026-01-12
TG-0071,K,4.0,mmol/L,2026-01-13
TG-0072,K,4.0,mmol/L,2026-01-14
TG-0073,K,4.0,mmol/L,2026-01-15
TG-0074,K,4.0,mmol/L,2026-01-16
TG-0075,K,4.0,mmol/L,2026-01-17
TG-0076,K,4.0,mmol/L,2026-01-18
TG-0077,K,4.0,mmol/L,2026-01-19
TG-0078,K,4.0,mmol/L,2026-01-20
TG-0079,K,4.0,mmol/L,2026-01-21
TG-0080,K,4.0,mmol/L,2026-01-12
TG-0081,K,4.0,mmol/L,2026-01-13
TG-0082,K,4.0,mmol/L,2026-01-14
TG-0083,K,4.0,mmol/L,2026-01-15
TG-0084,K,4.0,mmol/L,2026-01-16
TG-0085,K,4.0,mmol/L,2026-01-17
TG-0086,K,4.0,mmol/L,2026-01-18
TG-0087,K,4.0,mmol/L,2026-01-19
TG-0088,K,4.0,mmol/L,2026-01-20
TG-0089,K,4.0,mmol/L,2026-01-21
TG-0090,K,4.0,mmol/L,2026-01-12
TG-0091,K,4.0,mmol/L,2026-01-13
TG-0092,K,4.0,mmol/L,2026-01-14
TG-0093,K,4.0,mmol/L,2026-01-15
TG-0094,K,4.0,mmol/L,2026-01-16
TG-0095,K,4.0,mmol/L,2026-01-17
TG-0096,K,4.0,mmol/L,2026-01-18
TG-0097,K,4.0,mmol/L,2026-01-19
TG-0098,K,4.0,mmol/L,2026-01-20
TG-0099,K,4.0,mmol/L,2026-01-21
TG-0100,K,4.0,mmol/L,2026-01-12
TG-0101,K,4.0,mmol/L,2026-01-13
TG-0102,K,4.0,mmol/L,2026-01-14
TG-0103,K,4.0,mmol/L,2026-01-15
TG-0104,K,4.0,mmol/L,2026-01-16
TG-0105,K,4.0,mmol/L,2026-01-17
TG-0106,K,4.0,mmol/L,2026-01-18
TG-0107,K,4.0,mmol/L,2026-01-19
TG-0108,K,4.0,mmol/L,2026-01-20
TG-0109,K,4.0,mmol/L,2026-01-21
TG-0110,K,4.0,mmol/L,2026-01-12
TG-0111,K,4.0,mmol/L,2026-01-13
TG-0112,K,4.0,mmol/L,2026-01-14
TG-0113,K,4.0,mmol/L,2026-01-15
TG-0114,K,4.0,mmol/L,2026-01-16
TG-0115,K,4.0,mmol/L,2026-01-17
TG-0116,K,4.0,mmol/L,2026-01-18
TG-0117,K,4.0,mmol/L,2026-01-19
TG-0118,K,4.0,mmol/L,2026-01-20
TG-0119,K,4.0,mmol/L,2026-01-21
TG-0120,K,4.0,mmol/L,2026-01-12
TG-0121,K,4.0,mmol/L,2026-01-13
TG-0122,K,4.0,mmol/L,2026-01-14
TG-0123,K,4.0,mmol/L,2026-01-15
TG-0124,K,4.0,mmol/L,2026-01-16
TG-0125,K,4.0,mmol/L,2026-01-17
TG-0126,K,4.0,mmol/L,2026-01-18
TG-0127,K,4.0,mmol/L,2026-01-19
TG-0128,K,4.0,mmol/L,2026-01-20
TG-0129,K,4.0,mmol/L,2026-01-21
TG-0130,K,4.0,mmol/L,2026-01-12
TG-0131,K,4.0,mmol/L,2026-01-13
TG-0132,K,4.0,mmol/L,2026-01-14
TG-0133,K,4.0,mmol/L,2026-01-15
TG-0134,K,4.0,mmol/L,2026-01-16
TG-0135,K,4.0,mmol/L,2026-01-17
TG-0136,K,4.0,mmol/L,2026-01-18
TG-0137,K,4.0,mmol/L,2026-01-19
TG-0138,K,4.0,mmol/L,2026-01-20
TG-0139,K,4.0,mmol/L,2026-01-21
TG-0140,K,4.0,mmol/L,2026-01-12
TG-0141,K,4.0,mmol/L,2026-01-13
TG-0142,K,4.0,mmol/L,2026-01-14
TG-0143,K,4.0,mmol/L,2026-01-15
TG-0144,K,4.0,mmol/L,2026-01-16
TG-0145,K,4.0,mmol/L,2026-01-17
TG-0146,K,4.0,mmol/L,2026-01-18
TG-0147,K,4.0,mmol/L,2026-01-19
TG-0148,K,4.0,mmol/L,2026-01-20
TG-0149,K,4.0,mmol/L,2026-01-21
TG-0150,K,4.0,mmol/L,2026-01-12
TG-0151,K,4.0,mmol/L,2026-01-13
TG-0152,K,4.0,mmol/L,2026-01-14
TG-0153,K,4.0,mmol/L,2026-01-15
TG-0154,K,4.0,mmol/L,2026-01-16
TG-0155,K,4.0,mmol/L,2026-01-17
TG-0156,K,4.0,mmol/L,2026-01-18
TG-0157,K,4.0,mmol/L,2026-01-19
TG-0158,K,4.0,mmol/L,2026-01-20
TG-0159,K,4.0,mmol/L,2026-01-21
TG-0160,K,4.0,mmol/L,2026-01-12
TG-0161,K,4.0,mmol/L,2026-01-13
TG-0162,K,4.0,mmol/L,2026-01-14
TG-0163,K,4.0,mmol/L,2026-01-15
TG-0164,K,4.0,mmol/L,2026-01-16
TG-0165,K,4.0,mmol/L,2026-01-17
TG-0166,K,4.0,mmol/L,2026-01-18
TG-0167,K,4.0,mmol/L,2026-01-19
TG-0168,K,4.0,mmol/L,2026-01-20
TG-0169,K,4.0,mmol/L,2026-01-21
TG-0170,K,4.0,mmol/L,2026-01-12
TG-0171,K,4.0,mmol/L,2026-01-13
TG-0172,K,4.0,mmol/L,2026-01-14
TG-0173,K,4.0,mmol/L,2026-01-15
TG-0174,K,4.0,mmol/L,2026-01-16
TG-0175,K,4.0,mmol/L,2026-01-17
TG-0176,K,4.0,mmol/L,2026-01-18
TG-0177,K,4.0,mmol/L,2026-01-19
TG-0178,K,4.0,mmol/L,2026-01-20
TG-0179,K,4.0,mmol/L,2026-01-21
TG-0180,K,4.0,mmol/L,2026-01-12
TG-0181,K,4.0,mmol/L,2026-01-13
TG-0182,K,4.0,mmol/L,2026-01-14
TG-0183,K,4.0,mmol/L,2026-01-15
TG-0184,K,4.0,mmol/L,2026-01-16
TG-0185,K,4.0,mmol/L,2026-01-17
TG-0186,K,4.0,mmol/L,2026-01-18
TG-0187,K,4.0,mmol/L,2026-01-19
TG-0188,K,4.0,mmol/L,2026-01-20
TG-0189,K,4.0,mmol/L,2026-01-21
TG-0190,K,4.0,mmol/L,2026-01-12
TG-0191,K,4.0,mmol/L,2026-01-13
TG-0192,K,4.0,mmol/L,2026-01-14
TG-0193,K,4.0,mmol/L,2026-01-15
TG-0194,K,4.0,mmol/L,2026-01-16
TG-0195,K,4.0,mmol/L,2026-01-17
TG-0196,K,4.0,mmol/L,2026-01-18
TG-0197,K,4.0,mmol/L,2026-01-19
TG-0198,K,4.0,mmol/L,2026-01-20
TG-0199,K,4.0,mmol/L,2026-01-21
TG-0200,K,4.0,mmol/L,2026-01-12
TG-0021,K,2.7,mmol/L,2026-02-01
TG-0022,K,2.7,mmol/L,2026-02-01
TG-0023,K,2.7,mmol/L,2026-02-01
TG-0024,K,2.7,mmol/L,2026-02-01
TG-0025,K,2.7,mmol/L,2026-02-01
TG-0026,K,2.7,mmol/L,2026-02-01
TG-0027,K,2.7,mmol/L,2026-02-01
TG-0028,K,2.7,mmol/L,2026-02-01
TG-0029,K,2.7,mmol/L,2026-02-01
TG-0030,K,2.7,mmol/L,2026-02-01
